Black Body Radiation Experiment Wed, Jan 24, 2024 4:31 PM
Sensor Position (Degrees)	Light Intensity (Volts)
0.00000	0.01236
0.00000	0.00979
0.00000	0.01043
0.00000	0.01124
0.00000	0.01542
0.00000	0.01027
0.00000	0.01059
0.00000	0.01059
0.00000	0.01156
0.00000	0.01623
0.00000	0.00882
0.00000	0.01333
0.00000	0.01252
0.00000	0.00850
0.00000	0.01381
0.00000	0.00979
0.00000	0.01124
0.00000	0.01140
0.00000	0.01317
0.00000	0.01091
0.00000	0.01397
0.00000	0.01204
0.00000	0.01236
0.00000	0.01333
0.00000	0.01156
0.00000	0.01027
0.00000	0.01107
0.00000	0.01059
0.00000	0.01107
0.00000	0.00898
0.00000	0.01075
0.01033	0.01446
0.01033	0.00979
0.01033	0.01107
0.01033	0.01075
0.01033	0.01333
0.01033	0.01091
0.01033	0.01043
0.01033	0.00721
0.02067	0.01188
0.02067	0.01140
0.03100	0.00817
0.05167	0.01140
0.06200	0.00946
0.06200	0.01414
0.06200	0.01269
0.06200	0.01236
0.06200	0.01285
0.09300	0.00705
0.12400	0.01156
0.16533	0.01333
0.21699	0.01043
0.29966	0.01124
0.36166	0.00753
0.37199	0.01301
0.45465	0.00882
0.50632	0.01349
0.52698	0.00769
0.59931	0.01059
0.64065	0.01381
0.65098	0.00866
0.72331	0.01414
0.76464	0.00866
0.78531	0.01269
0.87831	0.01107
0.95064	0.00882
0.99197	0.01365
1.11597	0.00914
1.18830	0.01220
1.23996	0.01220
1.32263	0.01043
1.36396	0.00656
1.39496	0.00737
1.52929	0.01075
1.61195	0.01043
1.63262	0.01414
1.73595	0.00882
1.82894	0.01317
1.85994	0.00995
1.99427	0.01236
2.06660	0.01381
2.10793	0.00898
2.19060	0.00866
2.24226	0.01607
2.27326	0.01043
2.35593	0.00995
2.41792	0.01059
2.43859	0.01317
2.51092	0.01236
2.57292	0.01172
2.60392	0.00801
2.68658	0.01172
2.74858	0.00914
2.77958	0.01075
2.87258	0.00962
2.93458	0.00995
2.96557	0.01349
3.04824	0.00962
3.09990	0.01301
3.12057	0.01397
3.19290	0.00882
3.24457	0.01059
3.25490	0.01301
3.30656	0.01075
3.34790	0.00866
3.36856	0.01172
3.44089	0.01124
3.49256	0.01220
3.51322	0.00930
3.60622	0.01124
3.67855	0.01188
3.71988	0.01107
3.82321	0.01188
3.91621	0.00769
3.95754	0.00930
4.13320	0.01236
4.23654	0.01236
4.26753	0.01301
4.41220	0.00801
4.52586	0.01333
4.56719	0.01269
4.73252	0.00979
4.85652	0.01140
4.91851	0.00801
5.13551	0.01075
5.28017	0.01462
5.34217	0.00979
5.54883	0.01011
5.68316	0.01542
5.74515	0.01317
5.94148	0.01285
6.08614	0.01236
6.13781	0.00785
6.34447	0.00866
6.48913	0.01269
6.55113	0.01027
6.75779	0.01269
6.90245	0.00689
6.97478	0.01220
7.20211	0.01236
7.35710	0.01140
7.42944	0.00898
7.61543	0.01365
7.71876	0.01285
7.76009	0.01124
7.96675	0.01124
8.11141	0.00672
8.20441	0.00914
8.42141	0.01188
8.57640	0.01172
8.66940	0.00962
8.90706	0.01124
9.08272	0.01301
9.14472	0.00882
9.44437	0.00834
9.59937	0.00898
9.68203	0.00995
9.91969	0.01333
10.10569	0.01349
10.18835	0.01124
10.41568	0.00979
10.55001	0.01333
10.61200	0.00962
10.80833	0.01027
10.96333	0.01349
11.02532	0.01269
11.21132	0.01478
11.33531	0.01027
11.39731	0.01204
11.55231	0.01285
11.66597	0.01510
11.70730	0.01655
11.85197	0.00995
11.93463	0.01075
12.00696	0.01011
12.14129	0.01124
12.21362	0.01575
12.24462	0.01091
12.34795	0.01156
12.39961	0.01478
12.42028	0.00801
12.53394	0.01188
12.59594	0.01285
12.62694	0.01027
12.70961	0.01156
12.77160	0.00962
12.80260	0.01188
12.86460	0.00914
12.90593	0.01301
12.92660	0.01140
12.99893	0.01236
13.02993	0.00689
13.05059	0.01317
13.13326	0.01188
13.18492	0.00946
13.21592	0.01204
13.29859	0.00866
13.33992	0.01510
13.36058	0.01043
13.45358	0.01236
13.49491	0.01365
13.53625	0.00995
13.62924	0.00769
13.69124	0.01220
13.74291	0.01124
13.81524	0.01220
13.86690	0.01236
13.89790	0.01220
13.98057	0.01124
14.01156	0.01204
14.03223	0.00882
14.10456	0.01043
14.15623	0.00834
14.18723	0.01091
14.26989	0.01140
14.32156	0.01172
14.35255	0.00834
14.43522	0.01140
14.48688	0.01043
14.50755	0.01236
14.57988	0.00511
14.65221	0.01027
14.68321	0.00866
14.84854	0.01317
14.92087	0.01252
14.94154	0.01011
15.07586	0.01220
15.14820	0.01027
15.18953	0.01124
15.32386	0.01091
15.39619	0.01172
15.44785	0.01188
15.56152	0.01671
15.63385	0.00882
15.66485	0.01236
15.74751	0.00834
15.79918	0.01188
15.83017	0.01510
15.91284	0.01365
15.98517	0.00962
16.02650	0.01204
16.11950	0.01140
16.19183	0.00930
16.23316	0.01333
16.33649	0.01381
16.42949	0.01526
16.47082	0.00962
16.58448	0.01349
16.66715	0.01381
16.70848	0.01172
16.82214	0.01591
16.90481	0.01220
16.95647	0.01124
17.07014	0.01414
17.15280	0.01365
17.17347	0.01639
17.26646	0.01156
17.31813	0.01494
17.33879	0.01526
17.40079	0.01559
17.43179	0.01414
17.45246	0.01381
17.49379	0.01414
17.51446	0.01156
17.52479	0.01349
17.56612	0.01349
17.57645	0.01381
17.58679	0.01510
17.59712	0.01752
17.61779	0.01317
17.62812	0.01301
17.66945	0.01607
17.69012	0.01768
17.71078	0.01494
17.77278	0.01687
17.81411	0.01575
17.83478	0.01252
17.92778	0.01478
17.96911	0.01220
18.00011	0.01832
18.09310	0.01865
18.16544	0.01768
18.23777	0.01591
18.33076	0.01172
18.37210	0.01687
18.39276	0.01510
18.42376	0.01816
18.44443	0.02171
18.46509	0.01993
18.50643	0.02010
18.53742	0.01736
18.54776	0.02106
18.57876	0.02155
18.59942	0.01752
18.60976	0.01848
18.65109	0.01542
18.71309	0.01462
18.75442	0.02106
18.82675	0.02187
18.89908	0.02573
18.93008	0.02187
19.00241	0.02138
19.04374	0.02428
19.07474	0.02380
19.14707	0.02348
19.18840	0.02541
19.20907	0.02767
19.25040	0.02348
19.28140	0.02622
19.30207	0.03057
19.36407	0.02847
19.40540	0.03008
19.44673	0.03105
19.56039	0.03137
19.64306	0.03202
19.75672	0.03395
20.01504	0.03927
20.13904	0.04474
20.25270	0.04635
20.53170	0.05892
20.68669	0.06279
20.80035	0.07487
21.10001	0.09887
21.23434	0.11240
21.35834	0.13464
21.55466	0.16798
21.67866	0.19473
21.78199	0.22179
22.01965	0.28397
22.13331	0.31716
22.21598	0.35534
22.41230	0.41253
22.50530	0.43863
22.59830	0.46344
22.74296	0.49356
22.80496	0.50484
22.85662	0.50661
22.94962	0.51112
23.00129	0.51338
23.02195	0.51032
23.08395	0.50468
23.11495	0.49888
23.12528	0.49437
23.18728	0.48502
23.21828	0.47214
23.22861	0.47149
23.26994	0.46327
23.31128	0.45200
23.32161	0.44604
23.34227	0.43444
23.36294	0.42606
23.38361	0.42091
23.40427	0.40979
23.42494	0.39964
23.43527	0.40029
23.45594	0.38869
23.46627	0.37902
23.47660	0.37741
23.48694	0.36646
23.49727	0.36033
23.50760	0.35888
23.51794	0.35131
23.52827	0.34438
23.53860	0.34181
23.54894	0.33520
23.55927	0.32844
23.56960	0.33150
23.61093	0.32248
23.63160	0.31474
23.64193	0.31410
23.69360	0.30282
23.73493	0.30008
23.74526	0.29219
23.80726	0.27882
23.85893	0.27044
23.87959	0.26674
23.96226	0.25288
24.01392	0.24032
24.03459	0.23146
24.13792	0.21663
24.22058	0.19988
24.24125	0.19569
24.34458	0.17636
24.42724	0.16315
24.45824	0.15783
24.54090	0.13834
24.62357	0.12545
24.66490	0.12078
24.75790	0.10709
24.80956	0.09130
24.84056	0.08856
24.94389	0.07906
25.01622	0.06875
25.04722	0.06424
25.12989	0.05183
25.20222	0.04732
25.23322	0.04764
25.30555	0.04410
25.36755	0.03911
25.38821	0.03862
25.47088	0.03153
25.52254	0.03298
25.55354	0.02735
25.62587	0.02928
25.66720	0.02380
25.68787	0.02251
25.74987	0.02155
25.79120	0.02493
25.81186	0.02525
25.87386	0.02155
25.91519	0.01865
25.93586	0.01800
25.99786	0.02074
26.04952	0.01865
26.07019	0.01687
26.13219	0.01526
26.17352	0.01752
26.19419	0.01800
26.22519	0.01317
26.26652	0.01848
26.27685	0.01832
26.31818	0.01220
26.36985	0.01397
26.38018	0.01768
26.43185	0.01559
26.46284	0.01559
26.48351	0.01365
26.54551	0.01832
26.57651	0.01365
26.62817	0.01478
26.70050	0.01446
26.75217	0.01752
26.79350	0.01591
26.89683	0.01703
26.98983	0.01526
27.02083	0.01526
27.13449	0.01365
27.20682	0.01848
27.22749	0.01591
27.35148	0.01720
27.43415	0.01687
27.48581	0.01333
27.62014	0.01510
27.70281	0.01478
27.75447	0.01623
27.89913	0.01687
27.97146	0.01575
28.02313	0.01365
28.17812	0.01349
28.26079	0.01478
28.32279	0.01140
28.43645	0.01381
28.51911	0.01107
28.56045	0.01091
28.66378	0.01510
28.74644	0.01236
28.79811	0.01333
28.92210	0.01510
29.00477	0.01107
29.04610	0.01381
29.19076	0.00914
29.29409	0.01526
29.34575	0.01236
29.52142	0.01236
29.63508	0.01365
29.69708	0.00898
29.89340	0.01494
30.01740	0.01043